Data(Ohms)
101.069138
101.088333
101.098862
101.098679
101.090012
101.078369
101.069687
101.06778
101.0728
101.08136
101.088654
101.090744
101.086624
101.078659
101.07106
101.06781
101.070358
101.076813
101.08284
101.083801
101.077225
101.064072
101.048645
101.036621
101.03244
101.037338
101.048813
101.061752
101.070831
101.072861
101.068069
101.059647
101.051865
101.047745
101.047775
101.049698
101.04985
101.045425
101.036194
101.024597
101.015045
101.011398
101.015137
101.024734
101.036224
101.045288
101.049408
101.049026
101.047318
101.048264
101.054428
101.06546
101.078033
101.087662
101.091064
101.088333
101.08313
101.081421
101.088379
101.105743
101.130157
101.154465
101.170425
101.172272
101.159515
101.13739
101.114731
101.100037
101.098145
101.107971
101.123566
101.136765
101.141251
101.135223
101.122147
101.108734
101.101456
101.103333
101.112411
101.122681
101.127213
101.121338
101.10527
101.083893
101.064682
101.054245
101.055344
101.065994
101.08049
101.092484
101.097824
101.09642
101.091934
101.089569
101.093384
101.104233
101.119797
101.135773
101.14827
101.155762
101.15921
101.16095
101.162704
101.16391
101.161697
101.152786
101.135544
101.11235
101.08931
101.074371
101.073486
101.087448
101.110657
101.133072
101.144226
101.138031
101.116058
101.086899
101.062729
101.053253
101.061447
101.081619
101.102051
101.110916
101.101852
101.077759
101.049042
101.028915
101.025909
101.039062
101.05748
101.065445
101.050323
101.010132
100.955841
100.906769
100.880554
100.882126
100.897522
100.896408
100.844391
100.720932
100.535187
100.332367
100.184967
100.171555
100.348785
100.727081
101.258698
101.843658
102.354477
102.673019
102.727676
102.517426
102.111954
101.628464
101.195251
100.914612
100.838684
100.962204
101.232788
101.572815
101.904922
102.172867
102.351318
102.443802
102.471909
102.462555
102.438339
102.413773
102.396545
102.390289
102.396164
102.411652
102.429062
102.435944
102.420013
102.37941
102.332489
102.322662
102.411728
102.66098
103.103012
103.714752
104.402313
105.009186
105.353149
105.285675
104.754868
103.843445
102.760681
101.787476
101.193954
101.15799
101.70697
102.697769
103.843811
104.792831
105.241806
105.05101
104.304947
103.286148
102.374405
101.916672
102.117981
102.979965
104.297318
105.713257
106.828491
107.335907
107.130112
106.337906
105.255569
104.22673
103.521255
103.258087
103.389709
103.742264
104.094635
104.267944
104.191544
103.918243
103.584473
103.339584
103.277817
103.402313
103.631439
103.841705
103.927917
103.852448
103.660736
103.456955
103.352615
103.414093
103.632233
103.926056
104.178284
104.287613
104.213135
103.990952
103.714661
103.490829
103.39183
103.426926
103.543167
103.6548
103.685684
103.606735
103.448242
103.282822
103.188293
103.20903
103.334534
103.504456
103.637527
103.671082
103.591003
103.437943
103.286179
103.206406
103.23114
103.339066
103.46611
103.537537
103.50589
103.375916
103.203232
103.067047
103.030991
103.111221
103.267563
103.421631
103.494949
103.448044
103.3013
103.125824
103.008484
103.009018
103.129974
103.31427
103.472198
103.526093
103.450745
103.287888
103.126495
103.057495
103.126389
103.307007
103.510498
103.627792
103.586441
103.393402
103.138535
102.954361
102.950577
103.155106
103.490906
103.803482
103.932648
103.797852
103.45253
103.072495
102.877274
103.019821
103.494003
104.104721
104.528564
104.463242
103.814713
102.827606
102.080902
102.351013
104.416672
108.87619
115.989471
125.520462
136.58728
147.630798
156.696686
162.106354
163.202667
160.598907
155.7229
150.059128
144.605667
139.725861
135.290726
130.958145
126.461182
121.798538
117.258774
113.292465
110.322067
108.582123
108.037872
108.385712
109.132111
109.737686
109.790848
109.140945
107.922791
106.462204
105.121841
104.16452
103.684113
103.610168
103.767776
103.962891
104.058182
104.010223
103.85762
103.673462
103.512421
103.380081
103.237579
103.033279
102.74295
102.393738
102.058151
101.820465
101.733047
101.784836
101.897858
101.955994
101.855194
101.55304
101.09314
100.591125
100.188431
99.993942
100.039627
100.265808
100.542877
100.721344
100.692383
100.432571
100.013748
99.572601
99.255814
99.163956
99.315674
99.642456
100.015091
100.291031
100.366196
100.211624
99.880051
99.481873
99.142838
98.960403
98.974762
99.161148
99.442551
99.717728
99.894012
99.914932
99.774017
99.511353
99.196915
98.906769
98.701065
98.609467
98.62709
98.72023
98.839417
98.936447
98.978943
98.959457
98.895248
98.819565
98.767258
98.760895
98.80159
98.869019
98.929657
98.952011
98.9207
98.84523
98.757675
98.70079
98.709869
98.796509
98.940628
99.094864
99.200577
99.210129
99.106674
98.912964
98.68515
98.492828
98.39447
98.41571
98.540314
98.715912
98.872787
98.949677
98.916046
98.782578
98.596085
98.421143
98.316101
98.313614
98.41156
98.577057
98.761353
98.918274
99.019699
99.061905
99.060272
99.037216
99.007767
98.97139
98.912323
98.808777
98.646835
98.432419
98.194946
97.981201
97.840897
97.809753
97.896179
98.07695
98.303482
98.516754
98.665482
98.722107
98.689148
98.595413
98.483902
98.395721
98.358063
98.377975
98.444809
98.537933
98.636551
98.726669
98.803452
98.86879
98.925751
98.974457
99.010559
99.028259
99.024902
99.005157
98.981857
98.971909
98.989471
99.039642
99.114746
99.196793
99.264832
99.304077
99.31337
99.306854
99.308151
99.340561
99.416107
99.528732
99.655502
99.764587
99.827988
99.833176
99.788681
99.72081
99.663101
99.642578
99.669174
99.731995
99.804428
99.85553
99.862579
99.819748
99.739014
99.643387
99.555893
99.489655
99.443329
99.403778
99.354141
99.283676
99.193375
99.096436
99.011322
98.952805
98.924286
98.915298
98.906113
98.877106
98.817932
98.733459
98.642029
98.568176
98.531967
98.540756
98.586258
98.648682
98.705505
98.741287
98.752991
98.750015
98.747543
98.757629
98.782822
98.814163
98.835983
98.834229
98.804245
98.754547
98.703659
98.672272
98.673523
98.706863
98.757492
98.802872
98.822266
98.806198
98.760544
98.703857
98.659134
98.643646
98.662338
98.706131
98.757141
98.79718
98.815948
98.814667
98.804291
98.798706
98.807236
98.829987
98.858017
98.878708
98.883286
98.871689
98.853989
98.845276
98.858032
98.894958
98.946365
98.993164
99.015213
99.000107
98.949493
98.878784
98.811172
98.767258
98.756744
98.774689
98.804352
98.825409
98.823776
98.798279
98.761108
98.732254
98.729736
98.761536
98.821426
98.891373
98.949463
98.978821
98.974228
98.9431
98.900864
98.863113
98.838425
98.825562
98.815674
98.798599
98.769562
98.732941
98.701111
98.688583
98.705017
98.749359
98.809891
98.868713
98.909515
98.925354
98.921814
98.914627
98.922775
98.959747
99.027176
99.114044
99.201416
99.270615
99.311005
99.324356
99.323349
99.325531
99.345078
99.387344
99.447189
99.512817
99.571945
99.618423
99.654602
99.689972
99.735275
99.79657
99.871307
99.948654
100.014526
100.057999
100.076736
100.078568
100.07814
100.090408
100.123505
100.1754
100.234192
100.28363
100.309998
100.308167
100.283463
100.249084
100.219711
100.205292
100.206879
100.216705
100.222443
100.213287
100.184387
100.139313
100.087494
100.039368
100.001846
99.975021
99.953247
99.928375
99.894592
99.851303
99.803864
99.760086
99.726089
99.702408
99.682632
99.655579
99.610489
99.54187
99.452454
99.353104
99.25856
99.181717
99.128952
99.097748
99.078644
99.059708
99.03183
98.992661
98.947296
98.905457
98.876968
98.867264
98.87529
98.894318
98.915298
98.931244
98.940186
98.945618
98.954422
98.973053
99.003922
99.044128
99.086227
99.121887
99.145203
99.15564
99.157944
99.16011
99.169403
99.189178
99.217453
99.247665
99.272476
99.286667
99.290375
99.28923
99.292007
99.307159
99.339111
99.386353
99.442078
99.496933
99.542572
99.574875
99.594971
99.608078
99.620743
99.637512
99.659103
99.682205
99.701385
99.712372
99.713928
99.709183
99.704422
99.706039
99.717941
99.739258
99.76445
99.7854
99.794479
99.787689
99.766235
99.736023
99.705139
99.680664
99.666183
99.660934
99.660782
99.660645
99.657211
99.650696
99.644409
99.643219
99.650894
99.66803
99.691559
99.715988
99.73587
99.748505
99.755341
99.761673
99.774033
99.797821
99.834045
99.879501
99.92717
99.969986
100.003464
100.027954
100.048111
100.070969
100.102417
100.144409
100.193924
100.24408
100.287613
100.320068
100.342422
100.360733
100.384125
100.420792
100.474625
100.54364
100.620941
100.697906
100.767807
100.828629
100.883728
100.939667
101.00267
101.075226
101.154785
101.234314
101.305618
101.362808
101.405136
101.437363
101.467041
101.501053
101.54216
101.587326
101.629074
101.658875
101.671204
101.66629
101.650299
101.632782
101.62262
101.624146
101.63533
101.649109
101.656662
101.651581
101.632721
101.604752
101.575363
101.551773
101.536804
101.52774
101.517456
101.498016
101.464554
101.418076
101.365158
101.315414
101.277435
101.254959
101.245972
101.24379
101.240967
101.23288
101.220535
101.21019
101.210403
101.228058
101.264999
101.316696
101.374527
101.428986
101.474243
101.510391
101.543381
101.58194
101.63356
101.701096
101.781754
101.868668
101.954605
102.035995
102.115051
102.199509
102.299606
102.42395
102.576416
102.755051
102.954315
103.169342
103.401215
103.660843
103.97049
104.362457
104.875992
105.553391
106.436707
107.566772
108.982986
110.72551
112.837952
115.370621
118.384064
121.952606
126.167053
131.13562
136.981979
143.837738
151.828705
161.054474
171.561768
183.315369
196.172516
